<Bundle xmlns="http://hl7.org/fhir">
	<id value="1-3-VaccinationRecord"></id>
	<meta>
		<lastUpdated value="2021-06-01T00:00:00.568+02:00"></lastUpdated>
		<profile
			value="http://fhir.ch/ig/ch-vacd/StructureDefinition/ch-vacd-document-vaccination-record"></profile>
	</meta>
	<identifier>
		<system value="urn:ietf:rfc:3986"></system>
		<value value="urn:uuid:5b8a26b2-dd6d-4c04-acaf-e4a44b7bcf47"></value>
	</identifier>
	<type value="document"></type>
	<timestamp value="2021-06-01T00:00:00.568+02:00"></timestamp>
	<entry>
		<fullUrl
			value="http://test.fhir.ch/r4/Composition/2-3-VaccinationRecordComposition"></fullUrl>
		<resource>
			<Composition xmlns="http://hl7.org/fhir">
				<id value="2-3-VaccinationRecordComposition"></id>
				<meta>
					<profile
						value="http://fhir.ch/ig/ch-vacd/StructureDefinition/ch-vacd-composition-vaccination-record"></profile>
				</meta>
				<language value="en-US"></language>
				<text>
					<status value="generated"></status>
					<div xmlns="http://www.w3.org/1999/xhtml" xml:lang="en-US"
						lang="en-US">This is the composition vaccination record.</div>
				</text>
				<extension id="versionNumber"
					url="http://fhir.ch/ig/ch-core/StructureDefinition/ch-ext-epr-versionnumber">
					<valueUnsignedInt value="1"></valueUnsignedInt>
				</extension>
				<identifier>
					<system value="urn:ietf:rfc:3986"></system>
					<value value="urn:uuid:00ae697d-3635-4c21-af13-4eaa8018c135"></value>
				</identifier>
				<status value="final"></status>
				<type>
					<coding>
						<system value="http://snomed.info/sct"></system>
						<code value="41000179103"></code>
						<display value="Immunization record"></display>
					</coding>
				</type>
				<subject>
					<reference value="Patient/3-1-Patient"></reference>
				</subject>
				<date value="2021-06-01T00:00:00+02:00"></date>
				<author>
					<reference value="PractitionerRole/6-1-PractitionerRole"></reference>
				</author>
				<title value="Vaccination Record"></title>
				<confidentiality value="N">
					<extension
						url="http://fhir.ch/ig/ch-core/StructureDefinition/ch-ext-epr-confidentialitycode">
						<valueCodeableConcept>
							<coding>
								<system value="http://snomed.info/sct"></system>
								<code value="17621005"></code>
								<display value="Normal (qualifier value)"></display>
							</coding>
						</valueCodeableConcept>
					</extension>
				</confidentiality>
				<custodian>
					<reference value="Organization/5-1-Organization"></reference>
				</custodian>
				<section id="administration">
					<title value="Immunization Administration"></title>
					<code>
						<coding>
							<system value="http://loinc.org"></system>
							<code value="11369-6"></code>
							<display value="Hx of Immunization"></display>
						</coding>
					</code>
					<text>
						<status value="generated"></status>
						<div xmlns="http://www.w3.org/1999/xhtml" xml:lang="en-US"
							lang="en-US">This is the section containing all immunization entries.
						</div>
					</text>
					<entry>
						<reference value="Immunization/7-2-Immunization"></reference>
					</entry>
					<entry>
						<reference value="Immunization/7-3-Immunization"></reference>
					</entry>
					<entry>
						<reference value="Immunization/7-4-Immunization"></reference>
					</entry>
					<entry>
						<reference value="Immunization/7-5-Immunization"></reference>
					</entry>
					<entry>
						<reference value="Immunization/7-6-Immunization"></reference>
					</entry>
				</section>
				<section id="medicalproblems">
					<title value="Other Relevant Observations"></title>
					<code>
						<coding>
							<system value="http://loinc.org"></system>
							<code value="11450-4"></code>
							<display value="Problem list Reported"></display>
						</coding>
					</code>
					<text>
						<status value="generated"></status>
						<div xmlns="http://www.w3.org/1999/xhtml" xml:lang="en-US"
							lang="en-US">This is the section containing the medical problem entries.
						</div>
					</text>
					<entry>
						<reference value="Condition/8-2-Condition"></reference>
					</entry>
					<entry>
						<reference value="Condition/8-3-Condition"></reference>
					</entry>
				</section>
				<section id="sectionIlnessesUndergondeForImmunization1">
					<title value="Undergone illnesses for immunization"></title>
					<code>
						<coding>
							<system value="http://loinc.org"></system>
							<code value="11348-0"></code>
							<display value="Hx of Past illness"></display>
						</coding>
					</code>
					<text>
						<status value="generated"></status>
						<div xmlns="http://www.w3.org/1999/xhtml" xml:lang="en-US"
							lang="en-US">This is the section containing the undergone illnesses for
							immunization entries.
						</div>
					</text>
					<entry>
						<reference value="Condition/8-4-Condition"></reference>
					</entry>
				</section>
				<section id="allergies">
					<title value="Allergies"></title>
					<code>
						<coding>
							<system value="http://loinc.org"></system>
							<code value="48765-2"></code>
							<display value="Allergies and adverse reactions Document"></display>
						</coding>
					</code>
					<text>
						<status value="generated"></status>
						<div xmlns="http://www.w3.org/1999/xhtml" xml:lang="en-US">This is the
							section containing the allergy entries.
						</div>
					</text>
					<entry>
						<reference
							value="AllergyIntolerance/11-1-AllergyIntolerance"></reference>
					</entry>
					<entry>
						<reference
							value="AllergyIntolerance/11-2-AllergyIntolerance"></reference>
					</entry>
				</section>
				<section id="otherRelevantObservations">
					<title value="Other Relevant Observations"></title>
					<code>
						<coding>
							<system value="http://loinc.org"></system>
							<code value="30954-2"></code>
							<display
								value="Relevant diagnostic tests/laboratory data Narrative"></display>
						</coding>
					</code>
					<text>
						<status value="generated"></status>
						<div xmlns="http://www.w3.org/1999/xhtml" xml:lang="en-US"
							lang="en-US">
							This section MAY contain relevant coded results of a patient for
							the given document context. The section MUST contain at least one
							Problem entry. In case of no relevant results, one of the
							'special case' codes MUST be used.
							<br></br>
							In the context of immunizations, this section may indicate the
							gestational age of a child if relevant for immunization of the
							child.
							<br></br>
							In the context of lab reports, this section may indicate the
							gestational age of a child if relevant for the observation
							interpretation.
						</div>
					</text>
					<entry>
						<reference value="Condition/8-9-Condition"></reference>
					</entry>
				</section>
				<section id="sectionLab1">
					<title value="Lab"></title>
					<code>
						<coding>
							<system value="http://loinc.org"></system>
							<code value="18727-8"></code>
							<display value="Serology studies (set)"></display>
						</coding>
					</code>
					<text>
						<status value="generated"></status>
						<div xmlns="http://www.w3.org/1999/xhtml" xml:lang="en-US"
							lang="en-US">This is the section containing the lab entries.</div>
					</text>
					<entry>
						<reference value="Observation/9-1-Observation"></reference>
					</entry>
				</section>
				<section id="pregnancy">
					<title value="Pregnancy"></title>
					<code>
						<coding>
							<system value="http://loinc.org"></system>
							<code value="10162-6"></code>
							<display value="Pregnancies Hx"></display>
						</coding>
					</code>
					<text>
						<status value="generated"></status>
						<div xmlns="http://www.w3.org/1999/xhtml" xml:lang="en-US"
							lang="en-US">This is the section containing the pregnancy status entry.
						</div>
					</text>
					<entry>
						<reference value="Condition/8-1-Condition"></reference>
					</entry>
				</section>
				<section id="sectionImmunizationRecomendations1">
					<title value="Vaccination Recommendations"></title>
					<code>
						<coding>
							<system value="http://loinc.org"></system>
							<code value="18776-5"></code>
							<display value="Plan of care note"></display>
						</coding>
					</code>
					<text>
						<status value="generated"></status>
						<div xmlns="http://www.w3.org/1999/xhtml" xml:lang="en-US"
							lang="en-US">This is the section containing all immunization
							recommendations entries.
						</div>
					</text>
					<entry>
						<reference
							value="ImmunizationRecommendation/10-2-ImmunizationRecommendation"></reference>
					</entry>
					<entry>
						<reference
							value="ImmunizationRecommendation/10-1-ImmunizationRecommendation"></reference>
					</entry>
				</section>
				<section id="annotation">
					<title value="Comments"></title>
					<code>
						<coding>
							<system value="http://loinc.org"></system>
							<code value="48767-8"></code>
							<display
								value="Annotation comment [Interpretation] Narrative"></display>
						</coding>
					</code>
					<text>
						<status value="generated"></status>
						<div xmlns="http://www.w3.org/1999/xhtml" xml:lang="en-US">This is the
							section containing all immunization entries.
						</div>
					</text>
				</section>
			</Composition>
		</resource>
	</entry>
	<entry>
		<fullUrl value="http://test.fhir.ch/r4/Patient/3-1-Patient"></fullUrl>
		<resource>
			<Patient xmlns="http://hl7.org/fhir">
				<id value="3-1-Patient"></id>
				<meta>
					<profile
						value="http://fhir.ch/ig/ch-core/StructureDefinition/ch-core-patient-epr"></profile>
				</meta>
				<text>
					<status value="generated"></status>
					<div xmlns="http://www.w3.org/1999/xhtml">
						<div class="hapiHeaderText">
							Monika
							<b>WEGMUELLER </b>
						</div>
						<table class="hapiPropertyTable">
							<tbody>
								<tr>
									<td>Identifier</td>
									<td>123.71.332.115</td>
								</tr>
								<tr>
									<td>Address</td>
									<td>
										<span>Leidensweg 10 </span>
										<br></br>
										<span>Specimendorf </span>
										<span>CH </span>
									</td>
								</tr>
								<tr>
									<td>Date of birth</td>
									<td>
										<span>10 February 1967</span>
									</td>
								</tr>
							</tbody>
						</table>
					</div>
				</text>
				<identifier>
					<system value="urn:oid:2.16.756.5.31"></system>
					<value value="123.71.332.115"></value>
				</identifier>
				<identifier>
					<system value="urn:oid:2.16.756.5.30.1.123.100.1.1.1"></system>
					<value value="8077560000000000000000"></value>
				</identifier>
				<name>
					<family value="Wegmueller"></family>
					<given value="Monika"></given>
				</name>
				<telecom>
					<system value="phone"></system>
					<value value="tel:+41.32.685.12.34"></value>
					<use value="home"></use>
				</telecom>
				<gender value="female"></gender>
				<birthDate value="1967-02-10"></birthDate>
				<address>
					<type value="both"></type>
					<line value="Leidensweg 10"></line>
					<city value="Specimendorf"></city>
					<postalCode value="9876"></postalCode>
					<country value="CH"></country>
				</address>
			</Patient>
		</resource>
	</entry>
	<entry>
		<fullUrl
			value="http://test.fhir.ch/r4/Practitioner/4-1-Practitioner"></fullUrl>
		<resource>
			<Practitioner xmlns="http://hl7.org/fhir">
				<id value="4-1-Practitioner"></id>
				<meta>
					<profile
						value="http://fhir.ch/ig/ch-core/StructureDefinition/ch-core-practitioner-epr"></profile>
				</meta>
				<identifier>
					<system value="urn:oid:2.51.1.3"></system>
					<value value="7608888888888"></value>
				</identifier>
				<active value="true"></active>
				<name>
					<family value="Bereit"></family>
					<given value="Allzeit"></given>
					<prefix value="Dr. med."></prefix>
				</name>
				<telecom>
					<system value="phone"></system>
					<value value="tel:+41.32.234.55.66"></value>
					<use value="work"></use>
				</telecom>
				<telecom>
					<system value="fax"></system>
					<value value="fax:+41.32.234.55.67"></value>
					<use value="work"></use>
				</telecom>
				<telecom>
					<system value="email"></system>
					<value value="mailto:bereit@gruppenpraxis.ch"></value>
					<use value="work"></use>
				</telecom>
				<telecom>
					<system value="url"></system>
					<value value="http://www.gruppenpraxis.ch"></value>
					<use value="work"></use>
				</telecom>
				<address>
					<type value="physical"></type>
					<line value="Doktorgasse 2"></line>
					<city value="Musterhausen"></city>
					<postalCode value="8888"></postalCode>
					<country value="CH"></country>
				</address>
			</Practitioner>
		</resource>
	</entry>
	<entry>
		<fullUrl
			value="http://test.fhir.ch/r4/Organization/5-1-Organization"></fullUrl>
		<resource>
			<Organization xmlns="http://hl7.org/fhir">
				<id value="5-1-Organization"></id>
				<meta>
					<profile
						value="http://fhir.ch/ig/ch-core/StructureDefinition/ch-core-organization-epr"></profile>
				</meta>
				<identifier>
					<system value="urn:oid:2.51.1.3"></system>
					<value value="7608888888888"></value>
				</identifier>
				<name value="Gruppenpraxis CH"></name>
				<telecom>
					<system value="phone"></system>
					<value value="tel:+41.32.234.55.66"></value>
					<use value="work"></use>
				</telecom>
				<telecom>
					<system value="fax"></system>
					<value value="fax:+41.32.234.55.67"></value>
					<use value="work"></use>
				</telecom>
				<telecom>
					<system value="email"></system>
					<value value="mailto:bereit@gruppenpraxis.ch"></value>
					<use value="work"></use>
				</telecom>
				<telecom>
					<system value="url"></system>
					<value value="http://www.gruppenpraxis.ch"></value>
					<use value="work"></use>
				</telecom>
				<address>
					<line value="Doktorgasse 2"></line>
					<city value="Musterhausen"></city>
					<state value="ZH"></state>
					<postalCode value="8888"></postalCode>
					<country value="CH"></country>
				</address>
			</Organization>
		</resource>
	</entry>
	<entry>
		<fullUrl
			value="http://test.fhir.ch/r4/PractitionerRole/6-1-PractitionerRole"></fullUrl>
		<resource>
			<PractitionerRole xmlns="http://hl7.org/fhir">
				<id value="6-1-PractitionerRole"></id>
				<meta>
					<profile
						value="http://fhir.ch/ig/ch-core/StructureDefinition/ch-core-practitionerrole-epr"></profile>
				</meta>
				<active value="true"></active>
				<practitioner>
					<reference value="Practitioner/4-1-Practitioner"></reference>
				</practitioner>
				<organization>
					<reference value="Organization/5-1-Organization"></reference>
				</organization>
			</PractitionerRole>
		</resource>
	</entry>
	<entry>
		<fullUrl
			value="http://test.fhir.ch/r4/PractitionerRole/6-2-PractitionerRole"></fullUrl>
		<resource>
			<PractitionerRole xmlns="http://hl7.org/fhir">
				<id value="6-2-PractitionerRole"></id>
				<meta>
					<profile
						value="http://fhir.ch/ig/ch-core/StructureDefinition/ch-core-practitionerrole"></profile>
				</meta>
				<active value="true"></active>
				<practitioner>
					<reference value="Practitioner/4-2-Practitioner"></reference>
				</practitioner>
				<organization>
					<reference value="Organization/5-2-Organization"></reference>
				</organization>
			</PractitionerRole>
		</resource>
	</entry>
	<entry>
		<fullUrl
			value="http://test.fhir.ch/r4/Practitioner/4-2-Practitioner"></fullUrl>
		<resource>
			<Practitioner xmlns="http://hl7.org/fhir">
				<id value="4-2-Practitioner"></id>
				<meta>
					<profile
						value="http://fhir.ch/ig/ch-core/StructureDefinition/ch-core-practitioner"></profile>
				</meta>
				<identifier>
					<system value="urn:oid:2.51.1.3"></system>
					<value value="2000000000030"></value>
				</identifier>
				<active value="true"></active>
				<name>
					<family value="Demo"></family>
					<given value="Detlef"></given>
				</name>
				<address id="12-6-Address">
					<line value="Hilfgasse 7"></line>
					<city value="Hilferswil"></city>
					<state value="BE"></state>
					<postalCode value="3456"></postalCode>
					<country value="CH"></country>
				</address>
			</Practitioner>
		</resource>
	</entry>
	<entry>
		<fullUrl
			value="http://test.fhir.ch/r4/Organization/5-2-Organization"></fullUrl>
		<resource>
			<Organization xmlns="http://hl7.org/fhir">
				<id value="5-2-Organization"></id>
				<meta>
					<profile
						value="http://fhir.ch/ig/ch-core/StructureDefinition/ch-core-organization"></profile>
				</meta>
				<identifier>
					<system value="urn:oid:2.51.1.3"></system>
					<value value="2010000000041"></value>
				</identifier>
				<name value="Praxis Demo"></name>
				<address id="12-6-Address">
					<line value="Hilfgasse 7"></line>
					<city value="Hilferswil"></city>
					<state value="BE"></state>
					<postalCode value="3456"></postalCode>
					<country value="CH"></country>
				</address>
			</Organization>
		</resource>
	</entry>
	<entry>
		<fullUrl
			value="http://test.fhir.ch/r4/PractitionerRole/6-3-PractitionerRole"></fullUrl>
		<resource>
			<PractitionerRole xmlns="http://hl7.org/fhir">
				<id value="6-3-PractitionerRole"></id>
				<meta>
					<profile
						value="http://fhir.ch/ig/ch-core/StructureDefinition/ch-core-practitionerrole"></profile>
				</meta>
				<active value="true"></active>
				<practitioner>
					<reference value="Practitioner/4-3-Practitioner"></reference>
				</practitioner>
				<organization>
					<reference value="Organization/5-3-Organization"></reference>
				</organization>
			</PractitionerRole>
		</resource>
	</entry>
	<entry>
		<fullUrl
			value="http://test.fhir.ch/r4/Practitioner/4-3-Practitioner"></fullUrl>
		<resource>
			<Practitioner xmlns="http://hl7.org/fhir">
				<id value="4-3-Practitioner"></id>
				<meta>
					<profile
						value="http://fhir.ch/ig/ch-core/StructureDefinition/ch-core-practitioner"></profile>
				</meta>
				<identifier>
					<system value="urn:oid:2.51.1.3"></system>
					<value value="2000000000031"></value>
				</identifier>
				<active value="true"></active>
				<name>
					<family value="Muster"></family>
					<given value="Max"></given>
				</name>
				<address>
					<line value="Mustergasse 99"></line>
					<city value="Beispielen"></city>
					<state value="SG"></state>
					<postalCode value="9876"></postalCode>
					<country value="CH"></country>
				</address>
			</Practitioner>
		</resource>
	</entry>
	<entry>
		<fullUrl
			value="http://test.fhir.ch/r4/Organization/5-3-Organization"></fullUrl>
		<resource>
			<Organization xmlns="http://hl7.org/fhir">
				<id value="5-3-Organization"></id>
				<meta>
					<profile
						value="http://fhir.ch/ig/ch-core/StructureDefinition/ch-core-organization"></profile>
				</meta>
				<identifier>
					<system value="urn:oid:2.51.1.3"></system>
					<value value="2010000000051"></value>
				</identifier>
				<name value="Praxis Muster"></name>
				<address>
					<line value="Mustergasse 99"></line>
					<city value="Beispielen"></city>
					<state value="SG"></state>
					<postalCode value="9876"></postalCode>
					<country value="CH"></country>
				</address>
			</Organization>
		</resource>
	</entry>
	<entry>
		<fullUrl
			value="http://test.fhir.ch/r4/Immunization/7-2-Immunization"></fullUrl>
		<resource>
			<Immunization xmlns="http://hl7.org/fhir">
				<id value="7-2-Immunization"></id>
				<meta>
					<profile
						value="http://fhir.ch/ig/ch-vacd/StructureDefinition/ch-vacd-immunization"></profile>
				</meta>
				<identifier>
					<system value="urn:oid:2.16.756.5.30.1.147.1.3.1"></system>
					<value value="12345"></value>
				</identifier>
				<status value="completed"></status>
				<vaccineCode>
					<coding>
						<system
							value="http://fhir.ch/ig/ch-vacd/CodeSystem/ch-vacd-swissmedic-cs"></system>
						<code value="637"></code>
						<display value="Boostrix"></display>
					</coding>
				</vaccineCode>
				<patient>
					<reference value="Patient/3-1-Patient"></reference>
				</patient>
				<occurrenceDateTime
					value="2013-09-15T00:00:00+02:00"></occurrenceDateTime>
				<recorded value="2013-09-15T00:00:00+02:00"></recorded>
				<lotNumber value="12-34244"></lotNumber>
				<route>
					<coding>
						<system value="http://standardterms.edqm.eu"></system>
						<code value="20035000"></code>
						<display value="Intramuscular use"></display>
					</coding>
				</route>
				<performer>
					<actor>
						<reference value="PractitionerRole/6-2-PractitionerRole"></reference>
					</actor>
				</performer>
				<protocolApplied>
					<targetDisease>
						<coding>
							<system value="http://snomed.info/sct"></system>
							<code value="397430003"></code>
							<display
								value="Diphtheria caused by Corynebacterium diphtheriae (disorder)"></display>
						</coding>
					</targetDisease>
					<targetDisease>
						<coding>
							<system value="http://snomed.info/sct"></system>
							<code value="76902006"></code>
							<display value="Tetanus (disorder)"></display>
						</coding>
					</targetDisease>
					<targetDisease>
						<coding>
							<system value="http://snomed.info/sct"></system>
							<code value="27836007"></code>
							<display value="Pertussis (disorder)"></display>
						</coding>
					</targetDisease>
					<doseNumberPositiveInt value="1"></doseNumberPositiveInt>
				</protocolApplied>
			</Immunization>
		</resource>
	</entry>
	<entry>
		<fullUrl
			value="http://test.fhir.ch/r4/Immunization/7-3-Immunization"></fullUrl>
		<resource>
			<Immunization xmlns="http://hl7.org/fhir">
				<id value="7-3-Immunization"></id>
				<meta>
					<profile
						value="http://fhir.ch/ig/ch-vacd/StructureDefinition/ch-vacd-immunization"></profile>
				</meta>
				<identifier>
					<system value="urn:oid:2.16.756.5.30.1.147.1.3.1"></system>
					<value value="23456"></value>
				</identifier>
				<status value="completed"></status>
				<vaccineCode>
					<coding>
						<system
							value="http://fhir.ch/ig/ch-vacd/CodeSystem/ch-vacd-swissmedic-cs"></system>
						<code value="637"></code>
						<display value="Boostrix"></display>
					</coding>
				</vaccineCode>
				<patient>
					<reference value="Patient/3-1-Patient"></reference>
				</patient>
				<occurrenceDateTime
					value="2014-08-12T00:00:00+02:00"></occurrenceDateTime>
				<recorded value="2014-08-12T00:00:00+02:00"></recorded>
				<lotNumber value="12-34244"></lotNumber>
				<route>
					<coding>
						<system value="http://standardterms.edqm.eu"></system>
						<code value="20035000"></code>
						<display value="Intramuscular use"></display>
					</coding>
				</route>
				<performer>
					<actor>
						<reference value="PractitionerRole/6-2-PractitionerRole"></reference>
					</actor>
				</performer>
				<protocolApplied>
					<targetDisease>
						<coding>
							<system value="http://snomed.info/sct"></system>
							<code value="397430003"></code>
							<display
								value="Diphtheria caused by Corynebacterium diphtheriae (disorder)"></display>
						</coding>
					</targetDisease>
					<targetDisease>
						<coding>
							<system value="http://snomed.info/sct"></system>
							<code value="76902006"></code>
							<display value="Tetanus (disorder)"></display>
						</coding>
					</targetDisease>
					<targetDisease>
						<coding>
							<system value="http://snomed.info/sct"></system>
							<code value="27836007"></code>
							<display value="Pertussis (disorder)"></display>
						</coding>
					</targetDisease>
					<doseNumberPositiveInt value="1"></doseNumberPositiveInt>
				</protocolApplied>
			</Immunization>
		</resource>
	</entry>
	<entry>
		<fullUrl
			value="http://test.fhir.ch/r4/Immunization/7-4-Immunization"></fullUrl>
		<resource>
			<Immunization xmlns="http://hl7.org/fhir">
				<id value="7-4-Immunization"></id>
				<meta>
					<profile
						value="http://fhir.ch/ig/ch-vacd/StructureDefinition/ch-vacd-immunization"></profile>
				</meta>
				<identifier>
					<system value="urn:oid:2.16.756.5.30.1.147.1.3.1"></system>
					<value value="34567"></value>
				</identifier>
				<status value="completed"></status>
				<vaccineCode>
					<coding>
						<system
							value="http://fhir.ch/ig/ch-vacd/CodeSystem/ch-vacd-swissmedic-cs"></system>
						<code value="637"></code>
						<display value="Boostrix"></display>
					</coding>
				</vaccineCode>
				<patient>
					<reference value="Patient/3-1-Patient"></reference>
				</patient>
				<occurrenceDateTime
					value="2015-11-01T00:00:00+01:00"></occurrenceDateTime>
				<recorded value="2015-11-01T00:00:00+01:00"></recorded>
				<lotNumber value="12-34244"></lotNumber>
				<route>
					<coding>
						<system value="http://standardterms.edqm.eu"></system>
						<code value="20035000"></code>
						<display value="Intramuscular use"></display>
					</coding>
				</route>
				<performer>
					<actor>
						<reference value="PractitionerRole/6-2-PractitionerRole"></reference>
					</actor>
				</performer>
				<protocolApplied>
					<targetDisease>
						<coding>
							<system value="http://snomed.info/sct"></system>
							<code value="397430003"></code>
							<display
								value="Diphtheria caused by Corynebacterium diphtheriae (disorder)"></display>
						</coding>
					</targetDisease>
					<targetDisease>
						<coding>
							<system value="http://snomed.info/sct"></system>
							<code value="76902006"></code>
							<display value="Tetanus (disorder)"></display>
						</coding>
					</targetDisease>
					<targetDisease>
						<coding>
							<system value="http://snomed.info/sct"></system>
							<code value="27836007"></code>
							<display value="Pertussis (disorder)"></display>
						</coding>
					</targetDisease>
					<doseNumberPositiveInt value="1"></doseNumberPositiveInt>
				</protocolApplied>
			</Immunization>
		</resource>
	</entry>
	<entry>
		<fullUrl
			value="http://test.fhir.ch/r4/Immunization/7-5-Immunization"></fullUrl>
		<resource>
			<Immunization xmlns="http://hl7.org/fhir">
				<id value="7-5-Immunization"></id>
				<meta>
					<profile
						value="http://fhir.ch/ig/ch-vacd/StructureDefinition/ch-vacd-immunization"></profile>
				</meta>
				<identifier>
					<system value="urn:oid:2.16.756.5.30.1.147.1.3.1"></system>
					<value value="45678"></value>
				</identifier>
				<status value="completed"></status>
				<vaccineCode>
					<coding>
						<system
							value="http://fhir.ch/ig/ch-vacd/CodeSystem/ch-vacd-swissmedic-cs"></system>
						<code value="268"></code>
						<display value="MMR-II"></display>
					</coding>
				</vaccineCode>
				<patient>
					<reference value="Patient/3-1-Patient"></reference>
				</patient>
				<occurrenceDateTime
					value="2016-03-05T00:00:00+01:00"></occurrenceDateTime>
				<recorded value="2016-03-05T00:00:00+01:00"></recorded>
				<lotNumber value="12-34244"></lotNumber>
				<route>
					<coding>
						<system value="http://standardterms.edqm.eu"></system>
						<code value="20035000"></code>
						<display value="Intramuscular use"></display>
					</coding>
				</route>
				<performer>
					<actor>
						<reference value="PractitionerRole/6-3-PractitionerRole"></reference>
					</actor>
				</performer>
				<protocolApplied>
					<targetDisease>
						<coding>
							<system value="http://snomed.info/sct"></system>
							<code value="14189004"></code>
							<display value="Measles (disorder)"></display>
						</coding>
					</targetDisease>
					<targetDisease>
						<coding>
							<system value="http://snomed.info/sct"></system>
							<code value="36989005"></code>
							<display value="Mumps (disorder)"></display>
						</coding>
					</targetDisease>
					<targetDisease>
						<coding>
							<system value="http://snomed.info/sct"></system>
							<code value="36653000"></code>
							<display value="Rubella (disorder)"></display>
						</coding>
					</targetDisease>
					<doseNumberPositiveInt value="1"></doseNumberPositiveInt>
				</protocolApplied>
			</Immunization>
		</resource>
	</entry>
	<entry>
		<fullUrl
			value="http://test.fhir.ch/r4/Immunization/7-6-Immunization"></fullUrl>
		<resource>
			<Immunization xmlns="http://hl7.org/fhir">
				<id value="7-6-Immunization"></id>
				<meta>
					<profile
						value="http://fhir.ch/ig/ch-vacd/StructureDefinition/ch-vacd-immunization"></profile>
				</meta>
				<identifier>
					<system value="urn:oid:2.16.756.5.30.1.147.1.3.1"></system>
					<value value="12312"></value>
				</identifier>
				<status value="completed"></status>
				<statusReason>
					<coding>
						<system
							value="http://terminology.hl7.org/CodeSystem/v3-ActReason"></system>
						<code value="PATOBJ"></code>
						<display value="Patient objection"></display>
					</coding>
				</statusReason>
				<vaccineCode>
					<coding>
						<system
							value="http://fhir.ch/ig/ch-vacd/CodeSystem/ch-vacd-swissmedic-cs"></system>
						<code value="545"></code>
						<display value="HBVAXPRO 40"></display>
					</coding>
				</vaccineCode>
				<patient>
					<reference value="Patient/3-1-Patient"></reference>
				</patient>
				<occurrenceDateTime
					value="2012-02-26T00:00:00+01:00"></occurrenceDateTime>
				<recorded value="2012-02-26T00:00:00+01:00"></recorded>
				<lotNumber value="12-34244"></lotNumber>
				<route>
					<coding>
						<system value="http://standardterms.edqm.eu"></system>
						<code value="20035000"></code>
						<display value="Intramuscular use"></display>
					</coding>
				</route>
				<performer>
					<actor>
						<reference value="PractitionerRole/6-3-PractitionerRole"></reference>
					</actor>
				</performer>
				<protocolApplied>
					<targetDisease>
						<coding>
							<system value="http://snomed.info/sct"></system>
							<code value="66071002"></code>
							<display value="Viral hepatitis type B (disorder)"></display>
						</coding>
					</targetDisease>
					<doseNumberPositiveInt value="1"></doseNumberPositiveInt>
				</protocolApplied>
			</Immunization>
		</resource>
	</entry>
	<entry>
		<fullUrl
			value="http://test.fhir.ch/r4/Condition/8-2-Condition"></fullUrl>
		<resource>
			<Condition xmlns="http://hl7.org/fhir">
				<id value="8-2-Condition"></id>
				<meta>
					<profile
						value="http://fhir.ch/ig/ch-vacd/StructureDefinition/ch-vacd-medical-problems"></profile>
				</meta>
				<code>
					<coding>
						<system value="urn:oid:2.16.756.5.30.1.127.3.3.1"></system>
						<code value="114036"></code>
						<display value="ANDERE_LEBERERKRANKUNG"></display>
					</coding>
				</code>
				<subject>
					<reference value="Patient/3-1-Patient"></reference>
				</subject>
				<recordedDate value="2019-04-01T00:00:00+02:00"></recordedDate>
				<recorder>
					<reference value="PractitionerRole/6-1-PractitionerRole"></reference>
				</recorder>
			</Condition>
		</resource>
	</entry>
	<entry>
		<fullUrl
			value="http://test.fhir.ch/r4/Condition/8-3-Condition"></fullUrl>
		<resource>
			<Condition xmlns="http://hl7.org/fhir">
				<id value="8-3-Condition"></id>
				<meta>
					<profile
						value="http://fhir.ch/ig/ch-vacd/StructureDefinition/ch-vacd-medical-problems"></profile>
				</meta>
				<code>
					<coding>
						<system value="urn:oid:2.16.756.5.30.1.127.3.3.2"></system>
						<code value="213006"></code>
						<display value="FLEDERMAUSFORSCHER_UND_SCHUETZER"></display>
					</coding>
				</code>
				<subject>
					<reference value="Patient/3-1-Patient"></reference>
				</subject>
				<recordedDate value="2009-04-01T00:00:00+02:00"></recordedDate>
				<recorder>
					<reference value="PractitionerRole/6-1-PractitionerRole"></reference>
				</recorder>
			</Condition>
		</resource>
	</entry>
	<entry>
		<fullUrl
			value="http://test.fhir.ch/r4/Condition/8-4-Condition"></fullUrl>
		<resource>
			<Condition xmlns="http://hl7.org/fhir">
				<id value="8-4-Condition"></id>
				<meta>
					<profile
						value="http://fhir.ch/ig/ch-vacd/StructureDefinition/ch-vacd-pastillnesses"></profile>
				</meta>
				<code>
					<coding>
						<system value="http://snomed.info/sct"></system>
						<code value="14189004"></code>
						<display value="Measles (disorder)"></display>
					</coding>
				</code>
				<subject>
					<reference value="Patient/3-1-Patient"></reference>
				</subject>
				<onsetDateTime value="1966-11-30T00:00:00+01:00"></onsetDateTime>
				<recordedDate value="1999-04-01T00:00:00+02:00"></recordedDate>
				<recorder>
					<reference value="PractitionerRole/6-1-PractitionerRole"></reference>
				</recorder>
			</Condition>
		</resource>
	</entry>
	<entry>
		<fullUrl
			value="http://test.fhir.ch/r4/AllergyIntolerance/11-1-AllergyIntolerance"></fullUrl>
		<resource>
			<AllergyIntolerance xmlns="http://hl7.org/fhir">
				<id value="11-1-AllergyIntolerance"></id>
				<meta>
					<profile
						value="http://fhir.ch/ig/ch-vacd/StructureDefinition/ch-vacd-allergyintolerances"></profile>
				</meta>
				<clinicalStatus>
					<coding>
						<system
							value="http://terminology.hl7.org/CodeSystem/allergyintolerance-clinical"></system>
						<code value="active"></code>
					</coding>
				</clinicalStatus>
				<code>
					<coding>
						<system value="http://snomed.info/sct"></system>
						<code value="213020009"></code>
						<display value="Allergy to egg protein (finding)"></display>
					</coding>
				</code>
				<patient>
					<reference value="Patient/3-1-Patient"></reference>
				</patient>
				<recordedDate value="2004-07-11T00:00:00+02:00"></recordedDate>
				<recorder>
					<reference value="PractitionerRole/6-1-PractitionerRole"></reference>
				</recorder>
			</AllergyIntolerance>
		</resource>
	</entry>
	<entry>
		<fullUrl
			value="http://test.fhir.ch/r4/AllergyIntolerance/11-2-AllergyIntolerance"></fullUrl>
		<resource>
			<AllergyIntolerance xmlns="http://hl7.org/fhir">
				<id value="11-2-AllergyIntolerance"></id>
				<meta>
					<profile
						value="http://fhir.ch/ig/ch-vacd/StructureDefinition/ch-vacd-allergyintolerances"></profile>
				</meta>
				<clinicalStatus>
					<coding>
						<system
							value="http://terminology.hl7.org/CodeSystem/allergyintolerance-clinical"></system>
						<code value="active"></code>
					</coding>
				</clinicalStatus>
				<code>
					<coding>
						<system value="http://snomed.info/sct"></system>
						<code value="24079001"></code>
						<display value="Atopic dermatitis (disorder)"></display>
					</coding>
				</code>
				<patient>
					<reference value="Patient/3-1-Patient"></reference>
				</patient>
				<recordedDate value="1996-07-11T00:00:00+02:00"></recordedDate>
				<recorder>
					<reference value="PractitionerRole/6-1-PractitionerRole"></reference>
				</recorder>
			</AllergyIntolerance>
		</resource>
	</entry>
	<entry>
		<fullUrl
			value="http://test.fhir.ch/r4/Condition/8-9-Condition"></fullUrl>
		<resource>
			<Condition xmlns="http://hl7.org/fhir">
				<id value="8-9-Condition"></id>
				<meta>
					<profile
						value="http://fhir.ch/ig/ch-vacd/StructureDefinition/ch-vacd-other-observations"></profile>
				</meta>
				<code>
					<coding>
						<system value="http://loinc.org"></system>
						<code value="49052-4"></code>
						<display value="Gestational age in days"></display>
					</coding>
				</code>
				<subject>
					<reference value="Patient/3-1-Patient"></reference>
				</subject>
				<onsetAge>
					<value value="266" />
					<unit value="day" />
					<system value="http://unitsofmeasure.org" />
					<code value="d" />
				</onsetAge>
				<recordedDate value="2009-03-31T00:00:00+02:00"></recordedDate>
				<recorder>
					<reference value="PractitionerRole/6-1-PractitionerRole"></reference>
				</recorder>
			</Condition>
		</resource>
	</entry>
	<entry>
		<fullUrl
			value="http://test.fhir.ch/r4/Observation/9-1-Observation"></fullUrl>
		<resource>
			<Observation xmlns="http://hl7.org/fhir">
				<id value="9-1-Observation"></id>
				<meta>
					<profile
						value="http://fhir.ch/ig/ch-vacd/StructureDefinition/ch-vacd-laboratory-serology"></profile>
				</meta>
				<text>
					<status value="generated"></status>
					<div xmlns="http://www.w3.org/1999/xhtml" xml:lang="en-US">There is an
						immunitzation protection against Hepatitis B.
					</div>
				</text>
				<status value="final"></status>
				<code>
					<coding>
						<system value="http://loinc.org"></system>
						<code value="16935-9"></code>
						<display
							value="Hepatitis B virus surface Ab [Units/volume] in Serum"></display>
					</coding>
				</code>
				<subject>
					<reference value="Patient/3-1-Patient"></reference>
				</subject>
				<effectiveDateTime value="1971-10"></effectiveDateTime>
				<performer>
					<reference value="PractitionerRole/6-1-PractitionerRole"></reference>
				</performer>
				<valueQuantity>
					<value value="99.0"></value>
					<unit value="[iU]/L"></unit>
					<system value="http://unitsofmeasure.org"></system>
					<code value="[iU]/L"></code>
				</valueQuantity>
				<interpretation>
					<coding>
						<system
							value="http://terminology.hl7.org/CodeSystem/v3-ObservationInterpretation"></system>
						<code value="POS"></code>
						<display value="Positive"></display>
					</coding>
				</interpretation>
			</Observation>
		</resource>
	</entry>
	<entry>
		<fullUrl
			value="http://test.fhir.ch/r4/Condition/8-1-Condition"></fullUrl>
		<resource>
			<Condition xmlns="http://hl7.org/fhir">
				<id value="8-1-Condition"></id>
				<meta>
					<profile
						value="http://fhir.ch/ig/ch-vacd/StructureDefinition/ch-vacd-pregnancy"></profile>
				</meta>
				<code>
					<coding>
						<system value="http://loinc.org"></system>
						<code value="11779-6"></code>
						<display
							value="Delivery date Estimated from last menstrual period"></display>
					</coding>
				</code>
				<subject>
					<reference value="Patient/3-1-Patient"></reference>
				</subject>
				<onsetDateTime value="2021-10-31T00:00:00+02:00"></onsetDateTime>
				<recordedDate value="2021-06-01T00:00:00+02:00"></recordedDate>
				<recorder>
					<reference value="PractitionerRole/6-1-PractitionerRole"></reference>
				</recorder>
			</Condition>
		</resource>
	</entry>
	<entry>
		<fullUrl
			value="http://test.fhir.ch/r4/ImmunizationRecommendation/10-2-ImmunizationRecommendation"></fullUrl>
		<resource>
			<ImmunizationRecommendation
				xmlns="http://hl7.org/fhir">
				<id value="10-2-ImmunizationRecommendation"></id>
				<meta>
					<profile
						value="http://fhir.ch/ig/ch-vacd/StructureDefinition/ch-vacd-immunization-recommendations"></profile>
				</meta>
				<identifier>
					<system value="urn:oid:2.16.756.5.30.1.147.1.3.1"></system>
					<value value="1"></value>
				</identifier>
				<patient>
					<reference value="Patient/3-1-Patient"></reference>
				</patient>
				<date value="2021-06-01T00:00:00+02:00"></date>
				<recommendation>
					<vaccineCode>
						<coding>
							<system
								value="http://fhir.ch/ig/ch-vacd/CodeSystem/ch-vacd-swissmedic-cs"></system>
							<code value="681"></code>
							<display value="Boostrix Polio"></display>
						</coding>
					</vaccineCode>
					<targetDisease>
						<coding>
							<system value="http://snomed.info/sct"></system>
							<code value="398102009"></code>
							<display value="Acute poliomyelitis (disorder)"></display>
						</coding>
					</targetDisease>
					<forecastStatus>
						<coding>
							<system
								value="http://terminology.hl7.org/CodeSystem/immunization-recommendation-status"></system>
							<code value="due"></code>
							<display value="Due"></display>
						</coding>
					</forecastStatus>
					<forecastReason>
						<coding>
							<system value="urn:oid:2.16.756.5.30.1.127.3.3.4"></system>
							<code value="41501"></code>
							<display value="Empfohlene Basisimpfungen"></display>
						</coding>
					</forecastReason>
					<dateCriterion>
						<code>
							<coding>
								<system value="http://loinc.org"></system>
								<code value="30980-7"></code>
								<display value="Date vaccine due"></display>
							</coding>
						</code>
						<value value="2021-06-01T00:00:00+02:00"></value>
					</dateCriterion>
				</recommendation>
			</ImmunizationRecommendation>
		</resource>
	</entry>
	<entry>
		<fullUrl
			value="http://test.fhir.ch/r4/ImmunizationRecommendation/10-1-ImmunizationRecommendation"></fullUrl>
		<resource>
			<ImmunizationRecommendation
				xmlns="http://hl7.org/fhir">
				<id value="10-1-ImmunizationRecommendation"></id>
				<meta>
					<profile
						value="http://fhir.ch/ig/ch-vacd/StructureDefinition/ch-vacd-immunization-recommendations"></profile>
				</meta>
				<identifier>
					<system value="urn:oid:2.16.756.5.30.1.147.1.3.1"></system>
					<value value="2"></value>
				</identifier>
				<patient>
					<reference value="Patient/3-1-Patient"></reference>
				</patient>
				<date value="2021-06-01T00:00:00+02:00"></date>
				<recommendation>
					<vaccineCode>
						<coding>
							<system
								value="http://fhir.ch/ig/ch-vacd/CodeSystem/ch-vacd-swissmedic-cs"></system>
							<code value="58317"></code>
							<display value="Fluad"></display>
						</coding>
					</vaccineCode>
					<targetDisease>
						<coding>
							<system value="http://snomed.info/sct"></system>
							<code value="63650001"></code>
							<display value="Cholera (disorder)"></display>
						</coding>
					</targetDisease>
					<forecastStatus>
						<coding>
							<system
								value="http://terminology.hl7.org/CodeSystem/immunization-recommendation-status"></system>
							<code value="due"></code>
							<display value="Due"></display>
						</coding>
					</forecastStatus>
					<forecastReason>
						<coding>
							<system value="urn:oid:2.16.756.5.30.1.127.3.3.4"></system>
							<code value="41503"></code>
							<display value="Empfohlene Impfungen für Risikogruppen"></display>
						</coding>
					</forecastReason>
					<dateCriterion>
						<code>
							<coding>
								<system value="http://loinc.org"></system>
								<code value="30980-7"></code>
								<display value="Date vaccine due"></display>
							</coding>
						</code>
						<value value="2021-06-01T00:00:00+02:00"></value>
					</dateCriterion>
				</recommendation>
			</ImmunizationRecommendation>
		</resource>
	</entry>
</Bundle>