<Bundle xmlns="http://hl7.org/fhir">
   <id value="1-1-ImmunizationAdministration"></id>
   <meta>
      <lastUpdated value="2021-06-01T00:00:00.374+02:00"></lastUpdated>
      <profile value="http://fhir.ch/ig/ch-vacd/StructureDefinition/ch-vacd-document-immunization-administration"></profile>
   </meta>
   <identifier>
      <system value="urn:ietf:rfc:3986"></system>
      <value value="urn:uuid:5b8a26b2-dd6d-4c04-acaf-e4a44b7bcf47"></value>
   </identifier>
   <type value="document"></type>
   <timestamp value="2021-06-01T00:00:00.390+02:00"></timestamp>
   <entry>
      <fullUrl value="http://test.fhir.ch/r4/Composition/2-1-ImmunizationAdministrationComposition"></fullUrl>
      <resource>
         <Composition xmlns="http://hl7.org/fhir">
            <id value="2-1-ImmunizationAdministrationComposition"></id>
            <meta>
               <profile value="http://fhir.ch/ig/ch-vacd/StructureDefinition/ch-vacd-composition-immunization-administration"></profile>
            </meta>
            <language value="en-US"></language>
            <text>
               <status value="generated"></status>
               <div xmlns="http://www.w3.org/1999/xhtml" xml:lang="en-US" lang="en-US">This is the composition for all immunizations.</div>
            </text>
            <extension id="versionNumber" url="http://fhir.ch/ig/ch-core/StructureDefinition/ch-ext-epr-versionnumber">
               <valueUnsignedInt value="1"></valueUnsignedInt>
            </extension>
            <identifier>
               <system value="urn:ietf:rfc:3986"></system>
               <value value="urn:uuid:5bca53b2-0973-4b91-961e-b1e93474c9c2"></value>
            </identifier>
            <status value="final"></status>
            <type>
               <coding>
                  <system value="http://snomed.info/sct"></system>
                  <code value="41000179103"></code>
                  <display value="Immunization record"></display>
               </coding>
            </type>
            <subject>
               <reference value="Patient/3-1-Patient"></reference>
            </subject>
            <date value="2021-06-01T00:00:00+02:00"></date>
            <author>
               <reference value="PractitionerRole/6-1-PractitionerRole"></reference>
            </author>
            <title value="Immunization Administration"></title>
            <confidentiality value="N">
               <extension url="http://fhir.ch/ig/ch-core/StructureDefinition/ch-ext-epr-confidentialitycode">
                  <valueCodeableConcept>
                     <coding>
                        <system value="http://snomed.info/sct"></system>
                        <code value="17621005"></code>
                        <display value="Normal (qualifier value)"></display>
                     </coding>
                  </valueCodeableConcept>
               </extension>
            </confidentiality>
            <custodian>
               <reference value="Organization/5-1-Organization"></reference>
            </custodian>
            <section id="administration">
               <title value="Immunization Administration"></title>
               <code>
                  <coding>
                     <system value="http://loinc.org"></system>
                     <code value="11369-6"></code>
                     <display value="Hx of Immunization"></display>
                  </coding>
               </code>
               <text>
                  <status value="generated"></status>
                  <div xmlns="http://www.w3.org/1999/xhtml" xml:lang="en-US" lang="en-US">This is the section containing all immunization entries.</div>
               </text>
               <entry>
                  <reference value="Immunization/7-1-Immunization"></reference>
               </entry>
            </section>
            <section id="annotation">
               <title value="Comments"></title>
               <code>
                  <coding>
                     <system value="http://loinc.org"></system>
                     <code value="48767-8"></code>
                     <display value="Annotation comment [Interpretation] Narrative"></display>
                  </coding>
               </code>
               <text>
                  <status value="generated"></status>
                  <div xmlns="http://www.w3.org/1999/xhtml" xml:lang="en-US">This is the section containing all immunization entries.</div>
               </text>
            </section>
         </Composition>
      </resource>
   </entry>
   <entry>
      <fullUrl value="http://test.fhir.ch/r4/Patient/3-1-Patient"></fullUrl>
      <resource>
         <Patient xmlns="http://hl7.org/fhir">
            <id value="3-1-Patient"></id>
            <meta>
               <profile value="http://fhir.ch/ig/ch-core/StructureDefinition/ch-core-patient-epr"></profile>
            </meta>
            <text>
               <status value="generated"></status>
               <div xmlns="http://www.w3.org/1999/xhtml">
                  <div class="hapiHeaderText">Monika 
                     <b>WEGMUELLER </b>
                  </div>
                  <table class="hapiPropertyTable">
                     <tbody>
                        <tr>
                           <td>Identifier</td>
                           <td>123.71.332.115</td>
                        </tr>
                        <tr>
                           <td>Address</td>
                           <td>
                              <span>Leidensweg 10 </span>
                              <br></br>
                              <span>Specimendorf </span>
                              <span>CH </span>
                           </td>
                        </tr>
                        <tr>
                           <td>Date of birth</td>
                           <td>
                              <span>10 February 1967</span>
                           </td>
                        </tr>
                     </tbody>
                  </table>
               </div>
            </text>
            <identifier>
               <system value="urn:oid:2.16.756.5.31"></system>
               <value value="123.71.332.115"></value>
            </identifier>
            <identifier>
               <system value="urn:oid:2.16.756.5.30.1.123.100.1.1.1"></system>
               <value value="8077560000000000000000"></value>
            </identifier>
            <name>
               <family value="Wegmueller"></family>
               <given value="Monika"></given>
            </name>
            <telecom>
               <system value="phone"></system>
               <value value="tel:+41.32.685.12.34"></value>
               <use value="home"></use>
            </telecom>
            <gender value="female"></gender>
            <birthDate value="1967-02-10"></birthDate>
            <address>
               <type value="both"></type>
               <line value="Leidensweg 10"></line>
               <city value="Specimendorf"></city>
               <postalCode value="9876"></postalCode>
               <country value="CH"></country>
            </address>
         </Patient>
      </resource>
   </entry>
   <entry>
      <fullUrl value="http://test.fhir.ch/r4/Practitioner/4-1-Practitioner"></fullUrl>
      <resource>
         <Practitioner xmlns="http://hl7.org/fhir">
            <id value="4-1-Practitioner"></id>
            <meta>
               <profile value="http://fhir.ch/ig/ch-core/StructureDefinition/ch-core-practitioner-epr"></profile>
            </meta>
            <identifier>
               <system value="urn:oid:2.51.1.3"></system>
               <value value="7608888888888"></value>
            </identifier>
            <active value="true"></active>
            <name>
               <family value="Bereit"></family>
               <given value="Allzeit"></given>
               <prefix value="Dr. med."></prefix>
            </name>
            <telecom>
               <system value="phone"></system>
               <value value="tel:+41.32.234.55.66"></value>
               <use value="work"></use>
            </telecom>
            <telecom>
               <system value="fax"></system>
               <value value="fax:+41.32.234.55.67"></value>
               <use value="work"></use>
            </telecom>
            <telecom>
               <system value="email"></system>
               <value value="mailto:bereit@gruppenpraxis.ch"></value>
               <use value="work"></use>
            </telecom>
            <telecom>
               <system value="url"></system>
               <value value="http://www.gruppenpraxis.ch"></value>
               <use value="work"></use>
            </telecom>
            <address>
               <type value="physical"></type>
               <line value="Doktorgasse 2"></line>
               <city value="Musterhausen"></city>
               <postalCode value="8888"></postalCode>
               <country value="CH"></country>
            </address>
         </Practitioner>
      </resource>
   </entry>
   <entry>
      <fullUrl value="http://test.fhir.ch/r4/Organization/5-1-Organization"></fullUrl>
      <resource>
         <Organization xmlns="http://hl7.org/fhir">
            <id value="5-1-Organization"></id>
            <meta>
               <profile value="http://fhir.ch/ig/ch-core/StructureDefinition/ch-core-organization-epr"></profile>
            </meta>
            <identifier>
               <system value="urn:oid:2.51.1.3"></system>
               <value value="7608888888888"></value>
            </identifier>
            <name value="Gruppenpraxis CH"></name>
            <telecom>
               <system value="phone"></system>
               <value value="tel:+41.32.234.55.66"></value>
               <use value="work"></use>
            </telecom>
            <telecom>
               <system value="fax"></system>
               <value value="fax:+41.32.234.55.67"></value>
               <use value="work"></use>
            </telecom>
            <telecom>
               <system value="email"></system>
               <value value="mailto:bereit@gruppenpraxis.ch"></value>
               <use value="work"></use>
            </telecom>
            <telecom>
               <system value="url"></system>
               <value value="http://www.gruppenpraxis.ch"></value>
               <use value="work"></use>
            </telecom>
            <address>
               <line value="Doktorgasse 2"></line>
               <city value="Musterhausen"></city>
               <state value="ZH"></state>
               <postalCode value="8888"></postalCode>
               <country value="CH"></country>
            </address>
         </Organization>
      </resource>
   </entry>
   <entry>
      <fullUrl value="http://test.fhir.ch/r4/PractitionerRole/6-1-PractitionerRole"></fullUrl>
      <resource>
         <PractitionerRole xmlns="http://hl7.org/fhir">
            <id value="6-1-PractitionerRole"></id>
            <meta>
               <profile value="http://fhir.ch/ig/ch-core/StructureDefinition/ch-core-practitionerrole-epr"></profile>
            </meta>
            <active value="true"></active>
            <practitioner>
               <reference value="Practitioner/4-1-Practitioner"></reference>
            </practitioner>
            <organization>
               <reference value="Organization/5-1-Organization"></reference>
            </organization>
         </PractitionerRole>
      </resource>
   </entry>
   <entry>
      <fullUrl value="http://test.fhir.ch/r4/Immunization/7-1-Immunization"></fullUrl>
      <resource>
         <Immunization xmlns="http://hl7.org/fhir">
            <id value="7-1-Immunization"></id>
            <meta>
               <profile value="http://fhir.ch/ig/ch-vacd/StructureDefinition/ch-vacd-immunization"></profile>
            </meta>
            <identifier>
               <system value="urn:oid:2.16.756.5.30.1.147.1.3.1"></system>
               <value value="1829774"></value>
            </identifier>
            <status value="completed"></status>
            <vaccineCode>
               <coding>
                  <system value="http://fhir.ch/ig/ch-vacd/CodeSystem/ch-vacd-swissmedic-cs"></system>
                  <code value="637"></code>
                  <display value="Boostrix"></display>
               </coding>
            </vaccineCode>
            <patient>
               <reference value="Patient/3-1-Patient"></reference>
            </patient>
            <occurrenceDateTime value="2017-09-15T09:12:56+02:00"></occurrenceDateTime>
            <recorded value="2017-09-15T09:12:56+02:00"></recorded>
            <lotNumber value="12-34244"></lotNumber>
            <route>
               <coding>
                  <system value="http://standardterms.edqm.eu"></system>
                  <code value="20035000"></code>
                  <display value="Intramuscular use"></display>
               </coding>
            </route>
            <performer>
               <actor>
                  <reference value="PractitionerRole/6-1-PractitionerRole"></reference>
               </actor>
            </performer>
            <protocolApplied>
               <targetDisease>
                  <coding>
                     <system value="http://snomed.info/sct"></system>
                     <code value="397430003"></code>
                     <display value="Diphtheria caused by Corynebacterium diphtheriae (disorder)"></display>
                  </coding>
               </targetDisease>
               <targetDisease>
                  <coding>
                     <system value="http://snomed.info/sct"></system>
                     <code value="76902006"></code>
                     <display value="Tetanus (disorder)"></display>
                  </coding>
               </targetDisease>
               <targetDisease>
                  <coding>
                     <system value="http://snomed.info/sct"></system>
                     <code value="27836007"></code>
                     <display value="Pertussis (disorder)"></display>
                  </coding>
               </targetDisease>
               <doseNumberPositiveInt value="1"></doseNumberPositiveInt>
            </protocolApplied>
         </Immunization>
      </resource>
   </entry>
</Bundle>