<Bundle xmlns="http://hl7.org/fhir">
   <id value="1-4-ImmunizationRecommendationRequest"></id>
   <meta>
      <lastUpdated value="2021-06-01T00:00:00.394+02:00"></lastUpdated>
      <profile value="http://fhir.ch/ig/ch-vacd/StructureDefinition/ch-vacd-document-immunization-recommendation-request"></profile>
   </meta>
   <identifier>
      <system value="urn:ietf:rfc:3986"></system>
      <value value="urn:uuid:5b8a26b2-dd6d-4c04-acaf-e4a44b7bcf47"></value>
   </identifier>
   <type value="document"></type>
   <timestamp value="2021-06-01T00:00:00.394+02:00"></timestamp>
   <entry>
      <fullUrl value="http://test.fhir.ch/r4/Composition/2-4-ImmunizationRecommendationRequestComposition"></fullUrl>
      <resource>
         <Composition xmlns="http://hl7.org/fhir">
            <id value="2-4-ImmunizationRecommendationRequestComposition"></id>
            <meta>
               <profile value="http://fhir.ch/ig/ch-vacd/StructureDefinition/ch-vacd-composition-immunization-recommendation-request"></profile>
            </meta>
            <language value="en-US"></language>
            <text>
               <status value="generated"></status>
               <div xmlns="http://www.w3.org/1999/xhtml" xml:lang="en-US" lang="en-US">This is the composition vaccination record.</div>
            </text>
            <identifier>
               <system value="urn:ietf:rfc:3986"></system>
               <value value="urn:uuid:9256de1e-5f16-4e89-8da6-25abdd24c382"></value>
            </identifier>
            <status value="final"></status>
            <type>
               <coding>
                  <system value="http://snomed.info/sct"></system>
                  <code value="41000179103"></code>
                  <display value="Immunization record"></display>
               </coding>
            </type>
            <subject>
               <reference value="Patient/3-2-Patient"></reference>
            </subject>
            <date value="2021-06-01T00:00:00+02:00"></date>
            <author>
               <reference value="PractitionerRole/6-4-PractitionerRole"></reference>
            </author>
            <title value="Request vaccination recommendation"></title>
            <custodian>
               <reference value="Organization/5-4-Organization"></reference>
            </custodian>
            <section id="administration">
               <title value="Immunization Administration"></title>
               <code>
                  <coding>
                     <system value="http://loinc.org"></system>
                     <code value="11369-6"></code>
                     <display value="Hx of Immunization"></display>
                  </coding>
               </code>
               <text>
                  <status value="generated"></status>
                  <div xmlns="http://www.w3.org/1999/xhtml" xml:lang="en-US" lang="en-US">This is the section containing all immunization entries.</div>
               </text>
               <entry>
                  <reference value="Immunization/7-7-Immunization"></reference>
               </entry>
               <entry>
                  <reference value="Immunization/7-8-Immunization"></reference>
               </entry>
               <entry>
                  <reference value="Immunization/7-9-Immunization"></reference>
               </entry>
               <entry>
                  <reference value="Immunization/7-10-Immunization"></reference>
               </entry>
               <entry>
                  <reference value="Immunization/7-11-Immunization"></reference>
               </entry>
            </section>
            <section id="medicalproblems">
               <title value="Other Relevant Observations"></title>
               <code>
                  <coding>
                     <system value="http://loinc.org"></system>
                     <code value="11450-4"></code>
                     <display value="Problem list Reported"></display>
                  </coding>
               </code>
               <text>
                  <status value="generated"></status>
                  <div xmlns="http://www.w3.org/1999/xhtml" xml:lang="en-US" lang="en-US">This is the section containing the medical problem entries.</div>
               </text>
               <entry>
                  <reference value="Condition/8-6-Condition"></reference>
               </entry>
               <entry>
                  <reference value="Condition/8-7-Condition"></reference>
               </entry>
            </section>
            <section id="sectionIlnessesUndergondeForImmunization1">
               <title value="Undergone illnesses for immunization"></title>
               <code>
                  <coding>
                     <system value="http://loinc.org"></system>
                     <code value="11348-0"></code>
                     <display value="Hx of Past illness"></display>
                  </coding>
               </code>
               <text>
                  <status value="generated"></status>
                  <div xmlns="http://www.w3.org/1999/xhtml" xml:lang="en-US" lang="en-US">This is the section containing the undergone illnesses for immunization entries.</div>
               </text>
               <entry>
                  <reference value="Condition/8-8-Condition"></reference>
               </entry>
            </section>
            <section id="allergies">
               <title value="Allergies"></title>
               <code>
                  <coding>
                     <system value="http://loinc.org"></system>
                     <code value="48765-2"></code>
                     <display value="Allergies and adverse reactions Document"></display>
                  </coding>
               </code>
               <text>
                  <status value="generated"></status>
                  <div xmlns="http://www.w3.org/1999/xhtml" xml:lang="en-US">This is the section containing the allergy entries.</div>
               </text>
               <entry>
                  <reference value="AllergyIntolerance/11-3-AllergyIntolerance"></reference>
               </entry>
               <entry>
                  <reference value="AllergyIntolerance/11-4-AllergyIntolerance"></reference>
               </entry>
            </section>
            <section id="otherRelevantObservations">
               <title value="Other Relevant Observations"></title>
               <code>
                  <coding>
                     <system value="http://loinc.org"></system>
                     <code value="30954-2"></code>
                     <display value="Relevant diagnostic tests/laboratory data Narrative"></display>
                  </coding>
               </code>
               <text>
                  <status value="generated"></status>
                  <div xmlns="http://www.w3.org/1999/xhtml" xml:lang="en-US" lang="en-US">This section MAY contain relevant coded results of a patient for the given document context. The section MUST contain at least one Problem entry. In case of no relevant results, one of the 'special case' codes MUST be used. 
                     <br></br>In the context of immunizations, this section may indicate the gestational age of a child if relevant for immunization of the child. 
                     <br></br>In the context of lab reports, this section may indicate the gestational age of a child if relevant for the observation interpretation.
                  </div>
               </text>
               <entry>
                  <reference value="Condition/8-10-Condition"></reference>
               </entry>
            </section>
            <section id="sectionLab1">
               <title value="Lab"></title>
               <code>
                  <coding>
                     <system value="http://loinc.org"></system>
                     <code value="18727-8"></code>
                     <display value="Serology studies (set)"></display>
                  </coding>
               </code>
               <text>
                  <status value="generated"></status>
                  <div xmlns="http://www.w3.org/1999/xhtml" xml:lang="en-US" lang="en-US">This is the section containing the lab entries.</div>
               </text>
               <entry>
                  <reference value="Observation/9-2-Observation"></reference>
               </entry>
            </section>
            <section id="pregnancy">
               <title value="Pregnancy"></title>
               <code>
                  <coding>
                     <system value="http://loinc.org"></system>
                     <code value="10162-6"></code>
                     <display value="Pregnancies Hx"></display>
                  </coding>
               </code>
               <text>
                  <status value="generated"></status>
                  <div xmlns="http://www.w3.org/1999/xhtml" xml:lang="en-US" lang="en-US">This is the section containing the pregnancy status entry.</div>
               </text>
               <entry>
                  <reference value="Condition/8-5-Condition"></reference>
               </entry>
            </section>
         </Composition>
      </resource>
   </entry>
   <entry>
      <fullUrl value="http://test.fhir.ch/r4/Patient/3-2-Patient"></fullUrl>
      <resource>
         <Patient xmlns="http://hl7.org/fhir">
            <id value="3-2-Patient"></id>
            <meta>
               <profile value="http://fhir.ch/ig/ch-vacd/StructureDefinition/ch-vacd-recommendation-patient"></profile>
            </meta>
            <text>
               <status value="generated"></status>
               <div xmlns="http://www.w3.org/1999/xhtml">
                  <table class="hapiPropertyTable">
                     <tbody>
                        <tr>
                           <td>Identifier</td>
                           <td>urn:uuid:3e424a80-6e34-4520-b5af-f830ed5a0203</td>
                        </tr>
                        <tr>
                           <td>Address</td>
                           <td></td>
                        </tr>
                        <tr>
                           <td>Date of birth</td>
                           <td>
                              <span>10 March 1967</span>
                           </td>
                        </tr>
                     </tbody>
                  </table>
               </div>
            </text>
            <identifier>
               <system value="urn:oid:2.16.756.5.30.1.147.1.1"></system>
               <value value="urn:uuid:3e424a80-6e34-4520-b5af-f830ed5a0203"></value>
            </identifier>
            <gender value="female"></gender>
            <birthDate value="1967-03-10"></birthDate>
            <address>
               <postalCode value="9876"></postalCode>
            </address>
         </Patient>
      </resource>
   </entry>
   <entry>
      <fullUrl value="http://test.fhir.ch/r4/Practitioner/4-4-Practitioner"></fullUrl>
      <resource>
         <Practitioner xmlns="http://hl7.org/fhir">
            <id value="4-4-Practitioner"></id>
            <meta>
               <profile value="http://fhir.ch/ig/ch-vacd/StructureDefinition/ch-vacd-recommendation-practitioner"></profile>
            </meta>
            <identifier>
               <system value="urn:oid:2.51.1.3"></system>
               <value value="0000000000000"></value>
            </identifier>
            <active value="true"></active>
         </Practitioner>
      </resource>
   </entry>
   <entry>
      <fullUrl value="http://test.fhir.ch/r4/Organization/5-4-Organization"></fullUrl>
      <resource>
         <Organization xmlns="http://hl7.org/fhir">
            <id value="5-4-Organization"></id>
            <meta>
               <profile value="http://fhir.ch/ig/ch-vacd/StructureDefinition/ch-vacd-recommendation-organization"></profile>
            </meta>
            <identifier>
               <system value="urn:oid:2.51.1.3"></system>
               <value value="0000000000000"></value>
            </identifier>
            <name value="CDSS Requesting Org"></name>
         </Organization>
      </resource>
   </entry>
   <entry>
      <fullUrl value="http://test.fhir.ch/r4/PractitionerRole/6-4-PractitionerRole"></fullUrl>
      <resource>
         <PractitionerRole xmlns="http://hl7.org/fhir">
            <id value="6-4-PractitionerRole"></id>
            <meta>
               <profile value="http://fhir.ch/ig/ch-vacd/StructureDefinition/ch-vacd-recommendation-practitionerrole"></profile>
            </meta>
            <active value="true"></active>
            <practitioner>
               <reference value="Practitioner/4-4-Practitioner"></reference>
            </practitioner>
            <organization>
               <reference value="Organization/5-4-Organization"></reference>
            </organization>
         </PractitionerRole>
      </resource>
   </entry>
   <entry>
      <fullUrl value="http://test.fhir.ch/r4/PractitionerRole/6-5-PractitionerRole"></fullUrl>
      <resource>
         <PractitionerRole xmlns="http://hl7.org/fhir">
            <id value="6-5-PractitionerRole"></id>
            <meta>
               <profile value="http://fhir.ch/ig/ch-vacd/StructureDefinition/ch-vacd-recommendation-practitionerrole"></profile>
            </meta>
            <active value="true"></active>
            <practitioner>
               <reference value="Practitioner/4-5-Practitioner"></reference>
            </practitioner>
            <organization>
               <reference value="Organization/5-5-Organization"></reference>
            </organization>
         </PractitionerRole>
      </resource>
   </entry>
   <entry>
      <fullUrl value="http://test.fhir.ch/r4/Practitioner/4-5-Practitioner"></fullUrl>
      <resource>
         <Practitioner xmlns="http://hl7.org/fhir">
            <id value="4-5-Practitioner"></id>
            <meta>
               <profile value="http://fhir.ch/ig/ch-vacd/StructureDefinition/ch-vacd-recommendation-practitioner"></profile>
            </meta>
            <identifier>
               <system value="urn:oid:2.51.1.3"></system>
               <value value="2000000000030"></value>
            </identifier>
            <active value="true"></active>
            <name>
               <family value="Demo"></family>
               <given value="Detlef"></given>
            </name>
            <address id="12-3-Address">
               <postalCode value="3456"></postalCode>
               <country value="CH"></country>
            </address>
         </Practitioner>
      </resource>
   </entry>
   <entry>
      <fullUrl value="http://test.fhir.ch/r4/Organization/5-5-Organization"></fullUrl>
      <resource>
         <Organization xmlns="http://hl7.org/fhir">
            <id value="5-5-Organization"></id>
            <meta>
               <profile value="http://fhir.ch/ig/ch-vacd/StructureDefinition/ch-vacd-recommendation-organization"></profile>
            </meta>
            <identifier>
               <system value="urn:oid:2.51.1.3"></system>
               <value value="2010000000041"></value>
            </identifier>
            <name value="Praxis Demo"></name>
            <address id="12-3-Address">
               <postalCode value="3456"></postalCode>
               <country value="CH"></country>
            </address>
         </Organization>
      </resource>
   </entry>
   <entry>
      <fullUrl value="http://test.fhir.ch/r4/PractitionerRole/6-6-PractitionerRole"></fullUrl>
      <resource>
         <PractitionerRole xmlns="http://hl7.org/fhir">
            <id value="6-6-PractitionerRole"></id>
            <meta>
               <profile value="http://fhir.ch/ig/ch-vacd/StructureDefinition/ch-vacd-recommendation-practitionerrole"></profile>
            </meta>
            <active value="true"></active>
            <practitioner>
               <reference value="Practitioner/4-6-Practitioner"></reference>
            </practitioner>
            <organization>
               <reference value="Organization/5-6-Organization"></reference>
            </organization>
         </PractitionerRole>
      </resource>
   </entry>
   <entry>
      <fullUrl value="http://test.fhir.ch/r4/Practitioner/4-6-Practitioner"></fullUrl>
      <resource>
         <Practitioner xmlns="http://hl7.org/fhir">
            <id value="4-6-Practitioner"></id>
            <meta>
               <profile value="http://fhir.ch/ig/ch-vacd/StructureDefinition/ch-vacd-recommendation-practitioner"></profile>
            </meta>
            <identifier>
               <system value="urn:oid:2.51.1.3"></system>
               <value value="2000000000031"></value>
            </identifier>
            <active value="true"></active>
            <name>
               <family value="Muster"></family>
               <given value="Max"></given>
            </name>
            <address>
               <postalCode value="9876"></postalCode>
               <country value="CH"></country>
            </address>
         </Practitioner>
      </resource>
   </entry>
   <entry>
      <fullUrl value="http://test.fhir.ch/r4/Organization/5-6-Organization"></fullUrl>
      <resource>
         <Organization xmlns="http://hl7.org/fhir">
            <id value="5-6-Organization"></id>
            <meta>
               <profile value="http://fhir.ch/ig/ch-vacd/StructureDefinition/ch-vacd-recommendation-organization"></profile>
            </meta>
            <identifier>
               <system value="urn:oid:2.51.1.3"></system>
               <value value="2010000000051"></value>
            </identifier>
            <name value="Praxis Muster"></name>
            <address>
               <postalCode value="9876"></postalCode>
               <country value="CH"></country>
            </address>
         </Organization>
      </resource>
   </entry>
   <entry>
      <fullUrl value="http://test.fhir.ch/r4/Immunization/7-7-Immunization"></fullUrl>
      <resource>
         <Immunization xmlns="http://hl7.org/fhir">
            <id value="7-7-Immunization"></id>
            <meta>
               <profile value="http://fhir.ch/ig/ch-vacd/StructureDefinition/ch-vacd-recommendation-immunization"></profile>
            </meta>
            <identifier>
               <system value="urn:oid:2.16.756.5.30.1.147.1.3.1"></system>
               <value value="12345"></value>
            </identifier>
            <status value="completed"></status>
            <vaccineCode>
               <coding>
                  <system value="http://fhir.ch/ig/ch-vacd/CodeSystem/ch-vacd-swissmedic-cs"></system>
                  <code value="637"></code>
                  <display value="Boostrix"></display>
               </coding>
            </vaccineCode>
            <patient>
               <reference value="Patient/3-2-Patient"></reference>
            </patient>
            <occurrenceDateTime value="2013-09-15T00:00:00+02:00"></occurrenceDateTime>
            <recorded value="2013-09-15T00:00:00+02:00"></recorded>
            <lotNumber value="12345"></lotNumber>
            <performer>
               <actor>
                  <reference value="PractitionerRole/6-5-PractitionerRole"></reference>
               </actor>
            </performer>
            <reasonCode>
               <coding>
                  <system value="http://terminology.hl7.org/CodeSystem/v3-ActCode"></system>
                  <code value="IMMUNIZ"></code>
                  <display value="Immunization"></display>
               </coding>
            </reasonCode>
            <protocolApplied>
               <targetDisease>
                  <coding>
                     <system value="http://snomed.info/sct"></system>
                     <code value="397430003"></code>
                     <display value="Diphtheria caused by Corynebacterium diphtheriae (disorder)"></display>
                  </coding>
               </targetDisease>
               <targetDisease>
                  <coding>
                     <system value="http://snomed.info/sct"></system>
                     <code value="76902006"></code>
                     <display value="Tetanus (disorder)"></display>
                  </coding>
               </targetDisease>
               <targetDisease>
                  <coding>
                     <system value="http://snomed.info/sct"></system>
                     <code value="27836007"></code>
                     <display value="Pertussis (disorder)"></display>
                  </coding>
               </targetDisease>
               <doseNumberPositiveInt value="1"></doseNumberPositiveInt>
            </protocolApplied>
         </Immunization>
      </resource>
   </entry>
   <entry>
      <fullUrl value="http://test.fhir.ch/r4/Immunization/7-8-Immunization"></fullUrl>
      <resource>
         <Immunization xmlns="http://hl7.org/fhir">
            <id value="7-8-Immunization"></id>
            <meta>
               <profile value="http://fhir.ch/ig/ch-vacd/StructureDefinition/ch-vacd-recommendation-immunization"></profile>
            </meta>
            <identifier>
               <system value="urn:oid:2.16.756.5.30.1.147.1.3.1"></system>
               <value value="23456"></value>
            </identifier>
            <status value="completed"></status>
            <vaccineCode>
               <coding>
                  <system value="http://fhir.ch/ig/ch-vacd/CodeSystem/ch-vacd-swissmedic-cs"></system>
                  <code value="637"></code>
                  <display value="Boostrix"></display>
               </coding>
            </vaccineCode>
            <patient>
               <reference value="Patient/3-2-Patient"></reference>
            </patient>
            <occurrenceDateTime value="2014-08-12T00:00:00+02:00"></occurrenceDateTime>
            <recorded value="2014-08-12T00:00:00+02:00"></recorded>
            <lotNumber value="12345"></lotNumber>
            <performer>
               <actor>
                  <reference value="PractitionerRole/6-5-PractitionerRole"></reference>
               </actor>
            </performer>
            <reasonCode>
               <coding>
                  <system value="http://terminology.hl7.org/CodeSystem/v3-ActCode"></system>
                  <code value="IMMUNIZ"></code>
                  <display value="Immunization"></display>
               </coding>
            </reasonCode>
            <protocolApplied>
               <targetDisease>
                  <coding>
                     <system value="http://snomed.info/sct"></system>
                     <code value="397430003"></code>
                     <display value="Diphtheria caused by Corynebacterium diphtheriae (disorder)"></display>
                  </coding>
               </targetDisease>
               <targetDisease>
                  <coding>
                     <system value="http://snomed.info/sct"></system>
                     <code value="76902006"></code>
                     <display value="Tetanus (disorder)"></display>
                  </coding>
               </targetDisease>
               <targetDisease>
                  <coding>
                     <system value="http://snomed.info/sct"></system>
                     <code value="27836007"></code>
                     <display value="Pertussis (disorder)"></display>
                  </coding>
               </targetDisease>
               <doseNumberPositiveInt value="1"></doseNumberPositiveInt>
            </protocolApplied>
         </Immunization>
      </resource>
   </entry>
   <entry>
      <fullUrl value="http://test.fhir.ch/r4/Immunization/7-9-Immunization"></fullUrl>
      <resource>
         <Immunization xmlns="http://hl7.org/fhir">
            <id value="7-9-Immunization"></id>
            <meta>
               <profile value="http://fhir.ch/ig/ch-vacd/StructureDefinition/ch-vacd-recommendation-immunization"></profile>
            </meta>
            <identifier>
               <system value="urn:oid:2.16.756.5.30.1.147.1.3.1"></system>
               <value value="34567"></value>
            </identifier>
            <status value="completed"></status>
            <vaccineCode>
               <coding>
                  <system value="http://fhir.ch/ig/ch-vacd/CodeSystem/ch-vacd-swissmedic-cs"></system>
                  <code value="637"></code>
                  <display value="Boostrix"></display>
               </coding>
            </vaccineCode>
            <patient>
               <reference value="Patient/3-2-Patient"></reference>
            </patient>
            <occurrenceDateTime value="2015-11-01T00:00:00+01:00"></occurrenceDateTime>
            <recorded value="2015-11-01T00:00:00+01:00"></recorded>
            <lotNumber value="12345"></lotNumber>
            <performer>
               <actor>
                  <reference value="PractitionerRole/6-5-PractitionerRole"></reference>
               </actor>
            </performer>
            <reasonCode>
               <coding>
                  <system value="http://terminology.hl7.org/CodeSystem/v3-ActCode"></system>
                  <code value="IMMUNIZ"></code>
                  <display value="Immunization"></display>
               </coding>
            </reasonCode>
            <protocolApplied>
               <targetDisease>
                  <coding>
                     <system value="http://snomed.info/sct"></system>
                     <code value="397430003"></code>
                     <display value="Diphtheria caused by Corynebacterium diphtheriae (disorder)"></display>
                  </coding>
               </targetDisease>
               <targetDisease>
                  <coding>
                     <system value="http://snomed.info/sct"></system>
                     <code value="76902006"></code>
                     <display value="Tetanus (disorder)"></display>
                  </coding>
               </targetDisease>
               <targetDisease>
                  <coding>
                     <system value="http://snomed.info/sct"></system>
                     <code value="27836007"></code>
                     <display value="Pertussis (disorder)"></display>
                  </coding>
               </targetDisease>
               <doseNumberPositiveInt value="1"></doseNumberPositiveInt>
            </protocolApplied>
         </Immunization>
      </resource>
   </entry>
   <entry>
      <fullUrl value="http://test.fhir.ch/r4/Immunization/7-10-Immunization"></fullUrl>
      <resource>
         <Immunization xmlns="http://hl7.org/fhir">
            <id value="7-10-Immunization"></id>
            <meta>
               <profile value="http://fhir.ch/ig/ch-vacd/StructureDefinition/ch-vacd-recommendation-immunization"></profile>
            </meta>
            <identifier>
               <system value="urn:oid:2.16.756.5.30.1.147.1.3.1"></system>
               <value value="45678"></value>
            </identifier>
            <status value="completed"></status>
            <vaccineCode>
               <coding>
                  <system value="http://fhir.ch/ig/ch-vacd/CodeSystem/ch-vacd-swissmedic-cs"></system>
                  <code value="268"></code>
                  <display value="MMR-II"></display>
               </coding>
            </vaccineCode>
            <patient>
               <reference value="Patient/3-2-Patient"></reference>
            </patient>
            <occurrenceDateTime value="2016-03-05T00:00:00+01:00"></occurrenceDateTime>
            <recorded value="2016-03-05T00:00:00+01:00"></recorded>
            <lotNumber value="12345"></lotNumber>
            <performer>
               <actor>
                  <reference value="PractitionerRole/6-6-PractitionerRole"></reference>
               </actor>
            </performer>
            <reasonCode>
               <coding>
                  <system value="http://terminology.hl7.org/CodeSystem/v3-ActCode"></system>
                  <code value="IMMUNIZ"></code>
                  <display value="Immunization"></display>
               </coding>
            </reasonCode>
            <protocolApplied>
               <targetDisease>
                  <coding>
                     <system value="http://snomed.info/sct"></system>
                     <code value="14189004"></code>
                     <display value="Measles (disorder)"></display>
                  </coding>
               </targetDisease>
               <targetDisease>
                  <coding>
                     <system value="http://snomed.info/sct"></system>
                     <code value="36989005"></code>
                     <display value="Mumps (disorder)"></display>
                  </coding>
               </targetDisease>
               <targetDisease>
                  <coding>
                     <system value="http://snomed.info/sct"></system>
                     <code value="36653000"></code>
                     <display value="Rubella (disorder)"></display>
                  </coding>
               </targetDisease>
               <doseNumberPositiveInt value="1"></doseNumberPositiveInt>
            </protocolApplied>
         </Immunization>
      </resource>
   </entry>
   <entry>
      <fullUrl value="http://test.fhir.ch/r4/Immunization/7-11-Immunization"></fullUrl>
      <resource>
         <Immunization xmlns="http://hl7.org/fhir">
            <id value="7-11-Immunization"></id>
            <meta>
               <profile value="http://fhir.ch/ig/ch-vacd/StructureDefinition/ch-vacd-recommendation-immunization"></profile>
            </meta>
            <identifier>
               <system value="urn:oid:2.16.756.5.30.1.147.1.3.1"></system>
               <value value="12312"></value>
            </identifier>
            <status value="completed"></status>
            <vaccineCode>
               <coding>
                  <system value="http://fhir.ch/ig/ch-vacd/CodeSystem/ch-vacd-swissmedic-cs"></system>
                  <code value="545"></code>
                  <display value="HBVAXPRO 40"></display>
               </coding>
            </vaccineCode>
            <patient>
               <reference value="Patient/3-2-Patient"></reference>
            </patient>
            <occurrenceDateTime value="2012-02-26T00:00:00+01:00"></occurrenceDateTime>
            <recorded value="2012-02-26T00:00:00+01:00"></recorded>
            <lotNumber value="12345"></lotNumber>
            <performer>
               <actor>
                  <reference value="PractitionerRole/6-6-PractitionerRole"></reference>
               </actor>
            </performer>
            <reasonCode>
               <coding>
                  <system value="http://terminology.hl7.org/CodeSystem/v3-ActCode"></system>
                  <code value="IMMUNIZ"></code>
                  <display value="Immunization"></display>
               </coding>
            </reasonCode>
            <protocolApplied>
               <targetDisease>
                  <coding>
                     <system value="http://snomed.info/sct"></system>
                     <code value="66071002"></code>
                     <display value="Viral hepatitis type B (disorder)"></display>
                  </coding>
               </targetDisease>
               <doseNumberPositiveInt value="1"></doseNumberPositiveInt>
            </protocolApplied>
         </Immunization>
      </resource>
   </entry>
   <entry>
      <fullUrl value="http://test.fhir.ch/r4/Condition/8-6-Condition"></fullUrl>
      <resource>
         <Condition xmlns="http://hl7.org/fhir">
            <id value="8-6-Condition"></id>
            <meta>
               <profile value="http://fhir.ch/ig/ch-vacd/StructureDefinition/ch-vacd-recommendation-medical-problems"></profile>
            </meta>
            <code>
               <coding>
                  <system value="urn:oid:2.16.756.5.30.1.127.3.3.1"></system>
                  <code value="114036"></code>
                  <display value="ANDERE_LEBERERKRANKUNG"></display>
               </coding>
            </code>
            <subject>
               <reference value="Patient/3-2-Patient"></reference>
            </subject>
            <recordedDate value="2019-04-01T00:00:00+02:00"></recordedDate>
            <recorder>
               <reference value="PractitionerRole/6-4-PractitionerRole"></reference>
            </recorder>
         </Condition>
      </resource>
   </entry>
   <entry>
      <fullUrl value="http://test.fhir.ch/r4/Condition/8-7-Condition"></fullUrl>
      <resource>
         <Condition xmlns="http://hl7.org/fhir">
            <id value="8-7-Condition"></id>
            <meta>
               <profile value="http://fhir.ch/ig/ch-vacd/StructureDefinition/ch-vacd-recommendation-medical-problems"></profile>
            </meta>
            <code>
               <coding>
                  <system value="urn:oid:2.16.756.5.30.1.127.3.3.2"></system>
                  <code value="213006"></code>
                  <display value="FLEDERMAUSFORSCHER_UND_SCHUETZER"></display>
               </coding>
            </code>
            <subject>
               <reference value="Patient/3-2-Patient"></reference>
            </subject>
            <recordedDate value="2009-04-01T00:00:00+02:00"></recordedDate>
            <recorder>
               <reference value="PractitionerRole/6-4-PractitionerRole"></reference>
            </recorder>
         </Condition>
      </resource>
   </entry>
   <entry>
      <fullUrl value="http://test.fhir.ch/r4/Condition/8-8-Condition"></fullUrl>
      <resource>
         <Condition xmlns="http://hl7.org/fhir">
            <id value="8-8-Condition"></id>
            <meta>
               <profile value="http://fhir.ch/ig/ch-vacd/StructureDefinition/ch-vacd-recommendation-pastillnesses"></profile>
            </meta>
            <code>
               <coding>
                  <system value="http://snomed.info/sct"></system>
                  <code value="14189004"></code>
                  <display value="Measles (disorder)"></display>
               </coding>
            </code>
            <subject>
               <reference value="Patient/3-2-Patient"></reference>
            </subject>
            <onsetDateTime value="1966-11-30T00:00:00+01:00"></onsetDateTime>
            <recordedDate value="1999-04-01T00:00:00+02:00"></recordedDate>
            <recorder>
               <reference value="PractitionerRole/6-4-PractitionerRole"></reference>
            </recorder>
         </Condition>
      </resource>
   </entry>
   <entry>
      <fullUrl value="http://test.fhir.ch/r4/AllergyIntolerance/11-3-AllergyIntolerance"></fullUrl>
      <resource>
         <AllergyIntolerance xmlns="http://hl7.org/fhir">
            <id value="11-3-AllergyIntolerance"></id>
            <meta>
               <profile value="http://fhir.ch/ig/ch-vacd/StructureDefinition/ch-vacd-recommendation-allergyintolerances"></profile>
            </meta>
            <clinicalStatus>
               <coding>
                  <system value="http://terminology.hl7.org/CodeSystem/allergyintolerance-clinical"></system>
                  <code value="active"></code>
               </coding>
            </clinicalStatus>
            <code>
               <coding>
                  <system value="http://snomed.info/sct"></system>
                  <code value="213020009"></code>
                  <display value="Allergy to egg protein (finding)"></display>
               </coding>
            </code>
            <patient>
               <reference value="Patient/3-2-Patient"></reference>
            </patient>
            <recordedDate value="2004-07-11T00:00:00+02:00"></recordedDate>
            <recorder>
               <reference value="PractitionerRole/6-4-PractitionerRole"></reference>
            </recorder>
         </AllergyIntolerance>
      </resource>
   </entry>
   <entry>
      <fullUrl value="http://test.fhir.ch/r4/AllergyIntolerance/11-4-AllergyIntolerance"></fullUrl>
      <resource>
         <AllergyIntolerance xmlns="http://hl7.org/fhir">
            <id value="11-4-AllergyIntolerance"></id>
            <meta>
               <profile value="http://fhir.ch/ig/ch-vacd/StructureDefinition/ch-vacd-recommendation-allergyintolerances"></profile>
            </meta>
            <clinicalStatus>
               <coding>
                  <system value="http://terminology.hl7.org/CodeSystem/allergyintolerance-clinical"></system>
                  <code value="active"></code>
               </coding>
            </clinicalStatus>
            <code>
               <coding>
                  <system value="http://snomed.info/sct"></system>
                  <code value="24079001"></code>
                  <display value="Atopic dermatitis (disorder)"></display>
               </coding>
            </code>
            <patient>
               <reference value="Patient/3-2-Patient"></reference>
            </patient>
            <recordedDate value="1996-07-11T00:00:00+02:00"></recordedDate>
            <recorder>
               <reference value="PractitionerRole/6-4-PractitionerRole"></reference>
            </recorder>
         </AllergyIntolerance>
      </resource>
   </entry>
   <entry>
      <fullUrl value="http://test.fhir.ch/r4/Condition/8-10-Condition"></fullUrl>
      <resource>
         <Condition xmlns="http://hl7.org/fhir">
            <id value="8-10-Condition"></id>
            <meta>
               <profile value="http://fhir.ch/ig/ch-vacd/StructureDefinition/ch-vacd-recommendation-other-observations"></profile>
            </meta>
            <code>
               <coding>
                  <system value="http://loinc.org"></system>
                  <code value="49052-4"></code>
                  <display value="Gestational age in days"></display>
               </coding>
            </code>
            <subject>
               <reference value="Patient/3-2-Patient"></reference>
            </subject>
            <onsetAge>
              <value value="266" />
              <unit value="day" />
              <system value="http://unitsofmeasure.org" />
              <code value="d" />
            </onsetAge>
            <recordedDate value="2009-03-31T00:00:00+02:00"></recordedDate>
            <recorder>
               <reference value="PractitionerRole/6-4-PractitionerRole"></reference>
            </recorder>
         </Condition>
      </resource>
   </entry>
   <entry>
      <fullUrl value="http://test.fhir.ch/r4/Observation/9-2-Observation"></fullUrl>
      <resource>
         <Observation xmlns="http://hl7.org/fhir">
            <id value="9-2-Observation"></id>
            <meta>
               <profile value="http://fhir.ch/ig/ch-vacd/StructureDefinition/ch-vacd-recommendation-laboratory-serology"></profile>
            </meta>
            <text>
               <status value="generated"></status>
               <div xmlns="http://www.w3.org/1999/xhtml" xml:lang="en-US">There is an immunitzation protection against Hepatitis B.</div>
            </text>
            <status value="final"></status>
            <code>
               <coding>
                  <system value="http://loinc.org"></system>
                  <code value="16935-9"></code>
                  <display value="Hepatitis B virus surface Ab [Units/volume] in Serum"></display>
               </coding>
            </code>
            <subject>
               <reference value="Patient/3-2-Patient"></reference>
            </subject>
            <effectiveDateTime value="1971-10"></effectiveDateTime>
            <performer>
               <reference value="PractitionerRole/6-4-PractitionerRole"></reference>
            </performer>
            <valueQuantity>
               <value value="99.0"></value>
               <unit value="[iU]/L"></unit>
               <system value="http://unitsofmeasure.org"></system>
               <code value="[iU]/L"></code>
            </valueQuantity>
            <interpretation>
               <coding>
                  <system value="http://terminology.hl7.org/CodeSystem/v3-ObservationInterpretation"></system>
                  <code value="POS"></code>
                  <display value="Positive"></display>
               </coding>
            </interpretation>
         </Observation>
      </resource>
   </entry>
   <entry>
      <fullUrl value="http://test.fhir.ch/r4/Condition/8-5-Condition"></fullUrl>
      <resource>
         <Condition xmlns="http://hl7.org/fhir">
            <id value="8-5-Condition"></id>
            <meta>
               <profile value="http://fhir.ch/ig/ch-vacd/StructureDefinition/ch-vacd-recommendation-pregnancy"></profile>
            </meta>
            <code>
               <coding>
                  <system value="http://loinc.org"></system>
                  <code value="11779-6"></code>
                  <display value="Delivery date Estimated from last menstrual period"></display>
               </coding>
            </code>
            <subject>
               <reference value="Patient/3-2-Patient"></reference>
            </subject>
            <onsetDateTime value="2021-10-31T00:00:00+02:00"></onsetDateTime>
            <recordedDate value="2021-06-01T00:00:00+02:00"></recordedDate>
            <recorder>
               <reference value="PractitionerRole/6-4-PractitionerRole"></reference>
            </recorder>
         </Condition>
      </resource>
   </entry>
</Bundle>